Methyl Glyoxal Absorption Cross Sections
! Rec'd From Geert Moortgat, January, 1996, via FTP
! Essentially identical with IUPAC (1997) recommendations except that
! resolution appears to be better.
0.2190   9.84E-21
0.2195   1.04E-20
0.2200   1.06E-20
0.2205   1.11E-20
0.2210   1.15E-20
0.2215   1.18E-20
0.2220   1.22E-20
0.2225   1.24E-20
0.2230   1.26E-20
0.2235   1.26E-20
0.2240   1.25E-20
0.2245   1.24E-20
0.2250   1.25E-20
0.2255   1.27E-20
0.2260   1.27E-20
0.2265   1.29E-20
0.2270   1.31E-20
0.2275   1.32E-20
0.2280   1.35E-20
0.2285   1.37E-20
0.2290   1.40E-20
0.2295   1.42E-20
0.2300   1.48E-20
0.2305   1.53E-20
0.2310   1.57E-20
0.2315   1.59E-20
0.2320   1.61E-20
0.2325   1.62E-20
0.2330   1.61E-20
0.2335   1.68E-20
0.2340   1.74E-20
0.2345   1.80E-20
0.2350   1.84E-20
0.2355   1.87E-20
0.2360   1.89E-20
0.2365   1.91E-20
0.2370   1.93E-20
0.2375   1.94E-20
0.2380   1.96E-20
0.2385   1.96E-20
0.2390   2.01E-20
0.2395   2.04E-20
0.2400   2.08E-20
0.2405   2.10E-20
0.2410   2.14E-20
0.2415   2.16E-20
0.2420   2.19E-20
0.2425   2.20E-20
0.2430   2.23E-20
0.2435   2.26E-20
0.2440   2.28E-20
0.2445   2.29E-20
0.2450   2.30E-20
0.2455   2.32E-20
0.2460   2.33E-20
0.2465   2.35E-20
0.2470   2.38E-20
0.2475   2.41E-20
0.2480   2.46E-20
0.2485   2.51E-20
0.2490   2.57E-20
0.2495   2.61E-20
0.2500   2.65E-20
0.2505   2.67E-20
0.2510   2.69E-20
0.2515   2.69E-20
0.2520   2.71E-20
0.2525   2.72E-20
0.2530   2.73E-20
0.2535   2.74E-20
0.2540   2.76E-20
0.2545   2.78E-20
0.2550   2.82E-20
0.2555   2.87E-20
0.2560   2.93E-20
0.2565   2.98E-20
0.2570   3.07E-20
0.2575   3.12E-20
0.2580   3.17E-20
0.2585   3.21E-20
0.2590   3.26E-20
0.2595   3.28E-20
0.2600   3.29E-20
0.2605   3.31E-20
0.2610   3.33E-20
0.2615   3.34E-20
0.2620   3.36E-20
0.2625   3.38E-20
0.2630   3.42E-20
0.2635   3.44E-20
0.2640   3.48E-20
0.2645   3.54E-20
0.2650   3.59E-20
0.2655   3.65E-20
0.2660   3.73E-20
0.2665   3.80E-20
0.2670   3.87E-20
0.2675   3.95E-20
0.2680   4.02E-20
0.2685   4.08E-20
0.2690   4.13E-20
0.2695   4.17E-20
0.2700   4.20E-20
0.2705   4.22E-20
0.2710   4.22E-20
0.2715   4.22E-20
0.2720   4.23E-20
0.2725   4.24E-20
0.2730   4.27E-20
0.2735   4.29E-20
0.2740   4.31E-20
0.2745   4.33E-20
0.2750   4.37E-20
0.2755   4.42E-20
0.2760   4.48E-20
0.2765   4.56E-20
0.2770   4.64E-20
0.2775   4.71E-20
0.2780   4.78E-20
0.2785   4.83E-20
0.2790   4.87E-20
0.2795   4.90E-20
0.2800   4.92E-20
0.2805   4.93E-20
0.2810   4.94E-20
0.2815   4.92E-20
0.2820   4.90E-20
0.2825   4.86E-20
0.2830   4.83E-20
0.2835   4.79E-20
0.2840   4.76E-20
0.2845   4.72E-20
0.2850   4.70E-20
0.2855   4.68E-20
0.2860   4.66E-20
0.2865   4.65E-20
0.2870   4.65E-20
0.2875   4.68E-20
0.2880   4.73E-20
0.2885   4.78E-20
0.2890   4.84E-20
0.2895   4.89E-20
0.2900   4.92E-20
0.2905   4.92E-20
0.2910   4.90E-20
0.2915   4.86E-20
0.2920   4.81E-20
0.2925   4.75E-20
0.2930   4.70E-20
0.2935   4.65E-20
0.2940   4.58E-20
0.2945   4.48E-20
0.2950   4.38E-20
0.2955   4.27E-20
0.2960   4.17E-20
0.2965   4.07E-20
0.2970   3.99E-20
0.2975   3.94E-20
0.2980   3.88E-20
0.2985   3.82E-20
0.2990   3.76E-20
0.2995   3.72E-20
0.3000   3.69E-20
0.3005   3.68E-20
0.3010   3.70E-20
0.3015   3.72E-20
0.3020   3.74E-20
0.3025   3.74E-20
0.3030   3.75E-20
0.3035   3.71E-20
0.3040   3.62E-20
0.3045   3.51E-20
0.3050   3.38E-20
0.3055   3.25E-20
0.3060   3.15E-20
0.3065   3.04E-20
0.3070   2.92E-20
0.3075   2.80E-20
0.3080   2.71E-20
0.3085   2.63E-20
0.3090   2.52E-20
0.3095   2.43E-20
0.3100   2.34E-20
0.3105   2.25E-20
0.3110   2.19E-20
0.3115   2.12E-20
0.3120   2.06E-20
0.3125   2.02E-20
0.3130   1.96E-20
0.3135   1.92E-20
0.3140   1.91E-20
0.3145   1.88E-20
0.3150   1.86E-20
0.3155   1.85E-20
0.3160   1.86E-20
0.3165   1.87E-20
0.3170   1.87E-20
0.3175   1.87E-20
0.3180   1.83E-20
0.3185   1.75E-20
0.3190   1.69E-20
0.3195   1.60E-20
0.3200   1.50E-20
0.3205   1.41E-20
0.3210   1.34E-20
0.3215   1.27E-20
0.3220   1.21E-20
0.3225   1.18E-20
0.3230   1.14E-20
0.3235   1.08E-20
0.3240   1.01E-20
0.3245   9.62E-21
0.3250   9.28E-21
0.3255   8.75E-21
0.3260   8.49E-21
0.3265   8.21E-21
0.3270   7.71E-21
0.3275   7.38E-21
0.3280   7.18E-21
0.3285   6.86E-21
0.3290   6.71E-21
0.3295   6.63E-21
0.3300   6.46E-21
0.3305   6.29E-21
0.3310   6.21E-21
0.3315   6.18E-21
0.3320   6.20E-21
0.3325   5.49E-21
0.3330   5.21E-21
0.3335   5.38E-21
0.3340   5.35E-21
0.3345   5.04E-21
0.3350   4.94E-21
0.3355   4.90E-21
0.3360   4.52E-21
0.3365   4.26E-21
0.3370   4.11E-21
0.3375   3.76E-21
0.3380   3.61E-21
0.3385   3.58E-21
0.3390   3.47E-21
0.3395   3.32E-21
0.3400   3.22E-21
0.3405   3.10E-21
0.3410   3.00E-21
0.3415   2.94E-21
0.3420   2.89E-21
0.3425   2.86E-21
0.3430   2.88E-21
0.3435   2.88E-21
0.3440   2.89E-21
0.3445   2.91E-21
0.3450   2.95E-21
0.3455   3.00E-21
0.3460   3.08E-21
0.3465   3.18E-21
0.3470   3.25E-21
0.3475   3.30E-21
0.3480   3.39E-21
0.3485   3.51E-21
0.3490   3.63E-21
0.3495   3.73E-21
0.3500   3.85E-21
0.3505   3.99E-21
0.3510   4.27E-21
0.3515   4.47E-21
0.3520   4.63E-21
0.3525   4.78E-21
0.3530   4.92E-21
0.3535   5.07E-21
0.3540   5.23E-21
0.3545   5.39E-21
0.3550   5.56E-21
0.3555   5.77E-21
0.3560   5.97E-21
0.3565   6.15E-21
0.3570   6.35E-21
0.3575   6.56E-21
0.3580   6.76E-21
0.3585   6.95E-21
0.3590   7.20E-21
0.3595   7.44E-21
0.3600   7.64E-21
0.3605   7.89E-21
0.3610   8.15E-21
0.3615   8.43E-21
0.3620   8.71E-21
0.3625   9.02E-21
0.3630   9.33E-21
0.3635   9.65E-21
0.3640   1.00E-20
0.3645   1.04E-20
0.3650   1.08E-20
0.3655   1.11E-20
0.3660   1.15E-20
0.3665   1.19E-20
0.3670   1.23E-20
0.3675   1.27E-20
0.3680   1.31E-20
0.3685   1.35E-20
0.3690   1.40E-20
0.3695   1.44E-20
0.3700   1.47E-20
0.3705   1.51E-20
0.3710   1.55E-20
0.3715   1.59E-20
0.3720   1.64E-20
0.3725   1.70E-20
0.3730   1.73E-20
0.3735   1.77E-20
0.3740   1.81E-20
0.3745   1.86E-20
0.3750   1.90E-20
0.3755   1.96E-20
0.3760   2.02E-20
0.3765   2.06E-20
0.3770   2.10E-20
0.3775   2.14E-20
0.3780   2.18E-20
0.3785   2.24E-20
0.3790   2.30E-20
0.3795   2.37E-20
0.3800   2.42E-20
0.3805   2.47E-20
0.3810   2.54E-20
0.3815   2.62E-20
0.3820   2.69E-20
0.3825   2.79E-20
0.3830   2.88E-20
0.3835   2.96E-20
0.3840   3.02E-20
0.3845   3.10E-20
0.3850   3.20E-20
0.3855   3.29E-20
0.3860   3.39E-20
0.3865   3.51E-20
0.3870   3.62E-20
0.3875   3.69E-20
0.3880   3.70E-20
0.3885   3.77E-20
0.3890   3.88E-20
0.3895   3.97E-20
0.3900   4.03E-20
0.3905   4.12E-20
0.3910   4.22E-20
0.3915   4.29E-20
0.3920   4.30E-20
0.3925   4.38E-20
0.3930   4.47E-20
0.3935   4.55E-20
0.3940   4.56E-20
0.3945   4.59E-20
0.3950   4.67E-20
0.3955   4.80E-20
0.3960   4.87E-20
0.3965   4.96E-20
0.3970   5.08E-20
0.3975   5.19E-20
0.3980   5.23E-20
0.3985   5.39E-20
0.3990   5.46E-20
0.3995   5.54E-20
0.4000   5.59E-20
0.4005   5.77E-20
0.4010   5.91E-20
0.4015   5.99E-20
0.4020   6.06E-20
0.4025   6.20E-20
0.4030   6.35E-20
0.4035   6.52E-20
0.4040   6.54E-20
0.4045   6.64E-20
0.4050   6.93E-20
0.4055   7.15E-20
0.4060   7.19E-20
0.4065   7.32E-20
0.4070   7.58E-20
0.4075   7.88E-20
0.4080   7.97E-20
0.4085   7.91E-20
0.4090   8.11E-20
0.4095   8.41E-20
0.4100   8.53E-20
0.4105   8.59E-20
0.4110   8.60E-20
0.4115   8.80E-20
0.4120   9.04E-20
0.4125   9.45E-20
0.4130   9.34E-20
0.4135   9.37E-20
0.4140   9.63E-20
0.4145   9.71E-20
0.4150   9.70E-20
0.4155   9.65E-20
0.4160   9.69E-20
0.4165   9.89E-20
0.4170   1.00E-19
0.4175   1.02E-19
0.4180   1.00E-19
0.4185   1.02E-19
0.4190   1.01E-19
0.4195   1.01E-19
0.4200   1.03E-19
0.4205   1.01E-19
0.4210   1.04E-19
0.4215   1.05E-19
0.4220   1.06E-19
0.4225   1.04E-19
0.4230   1.05E-19
0.4235   1.05E-19
0.4240   1.01E-19
0.4245   1.01E-19
0.4250   1.05E-19
0.4255   1.03E-19
0.4260   1.02E-19
0.4265   1.01E-19
0.4270   9.77E-20
0.4275   9.81E-20
0.4280   1.00E-19
0.4285   1.02E-19
0.4290   9.89E-20
0.4295   9.85E-20
0.4300   1.04E-19
0.4305   1.08E-19
0.4310   1.05E-19
0.4315   1.02E-19
0.4320   9.64E-20
0.4325   1.01E-19
0.4330   1.06E-19
0.4335   1.09E-19
0.4340   1.04E-19
0.4345   1.03E-19
0.4350   1.07E-19
0.4355   1.16E-19
0.4360   1.09E-19
0.4365   1.11E-19
0.4370   9.81E-20
0.4375   9.71E-20
0.4380   1.06E-19
0.4385   1.16E-19
0.4390   1.08E-19
0.4395   1.05E-19
0.4400   9.70E-20
0.4405   1.01E-19
0.4410   1.04E-19
0.4415   1.07E-19
0.4420   1.02E-19
0.4425   9.68E-20
0.4430   1.00E-19
0.4435   1.14E-19
0.4440   1.13E-19
0.4445   1.03E-19
0.4450   9.74E-20
0.4455   8.46E-20
0.4460   8.70E-20
0.4465   9.97E-20
0.4470   1.01E-19
0.4475   9.15E-20
0.4480   9.41E-20
0.4485   8.99E-20
0.4490   1.10E-19
0.4495   9.12E-20
0.4500   8.56E-20
0.4505   8.28E-20
0.4510   6.15E-20
0.4515   5.56E-20
0.4520   6.47E-20
0.4525   7.27E-20
0.4530   5.75E-20
0.4535   5.08E-20
0.4540   4.38E-20
0.4545   3.81E-20
0.4550   3.61E-20
0.4555   3.61E-20
0.4560   3.13E-20
0.4565   2.72E-20
0.4570   2.44E-20
0.4575   2.22E-20
0.4580   1.82E-20
0.4585   1.43E-20
0.4590   1.32E-20
0.4595   1.05E-20
0.4600   8.95E-21
0.4605   8.90E-21
0.4610   7.94E-21
0.4615   7.04E-21
0.4620   6.46E-21
0.4625   5.63E-21
0.4630   4.78E-21
0.4635   3.94E-21
0.4640   3.26E-21
0.4645   2.97E-21
0.4650   2.65E-21
0.4655   2.46E-21
0.4660   2.27E-21
0.4665   2.08E-21
0.4670   1.86E-21
0.4675   1.76E-21
0.4680   1.60E-21
0.4685   1.44E-21
0.4690   1.34E-21
0.4695   1.20E-21
0.4700   1.07E-21
0.4705   1.02E-21
0.4710   9.92E-22
0.4715   9.97E-22
0.4720   8.87E-22
0.4725   8.27E-22
0.4730   7.76E-22
0.4735   7.15E-22
0.4740   6.71E-22
0.4745   6.67E-22
0.4750   6.10E-22
0.4755   6.17E-22
0.4760   5.54E-22
0.4765   5.22E-22
0.4770   5.10E-22
0.4775   5.17E-22
0.4780   4.80E-22
0.4785   4.71E-22
0.4790   4.60E-22
0.4795   4.35E-22
0.4800   3.90E-22
0.4805   3.71E-22
0.4810   3.62E-22
0.4815   3.52E-22
0.4820   3.05E-22
0.4825   3.05E-22
0.4830   2.86E-22
0.4835   2.53E-22
0.4840   2.75E-22
0.4845   2.59E-22
0.4850   2.47E-22
0.4855   2.36E-22
0.4860   2.12E-22
0.4865   1.89E-22
0.4870   1.93E-22
0.4875   1.86E-22
0.4880   1.82E-22
0.4885   1.75E-22
0.4890   1.74E-22
0.4895   1.72E-22
0.4900   1.66E-22
0.4905   1.75E-22
0.4910   1.54E-22
0.4915   1.74E-22
0.4920   1.63E-22
0.4925   1.53E-22
0.4930   1.52E-22
0.4935   5.85E-23
0.4940   0.0
