BACL + HV = PRODUCTS
! Biacetyl absorption cross sections from Plum et al (1983).
! Unit quantum yield assumed for low wavelength photolysis.
! High wavelength quantum yield adjusted to give same effective photolysis
! rates for EC in period of EC-900's as reported by Plum et al (1983) for
! that chamber, using the following model:
! Quantum yields between 0.328 and 0.350 assumed to be constant at 1.000 nm.
! Quantum yields above 0.350 assumed to decrease linearlly to zero at 0.421 nm.
0.2300      1.30E-20     1.000
0.2325      1.46E-20     1.000
0.2350      1.68E-20     1.000
0.2375      1.84E-20     1.000
0.2400      2.16E-20     1.000
0.2425      2.49E-20     1.000
0.2450      2.65E-20     1.000
0.2475      2.71E-20     1.000
0.2500      3.03E-20     1.000
0.2525      3.46E-20     1.000
0.2550      3.46E-20     1.000
0.2575      3.57E-20     1.000
0.2600      3.95E-20     1.000
0.2625      4.17E-20     1.000
0.2650      4.17E-20     1.000
0.2675      4.22E-20     1.000
0.2700      4.60E-20     1.000
0.2725      4.54E-20     1.000
0.2750      4.33E-20     1.000
0.2775      4.22E-20     1.000
0.2800      4.44E-20     1.000
0.2825      4.33E-20     1.000
0.2850      3.90E-20     1.000
0.2875      3.57E-20     1.000
0.2900      3.25E-20     1.000
0.2925      2.92E-20     1.000
0.2950      2.60E-20     1.000
0.2975      2.16E-20     1.000
0.3000      1.79E-20     1.000
0.3025      1.73E-20     1.000
0.3050      1.46E-20     1.000
0.3075      1.08E-20     1.000
0.3100      9.20E-21     1.000
0.3125      7.03E-21     1.000
0.3150      6.49E-21     1.000
0.3175      5.41E-21     1.000
0.3200      5.41E-21     1.000
0.3225      5.41E-21     1.000
0.3250      4.33E-21     1.000
0.3275      3.25E-21     1.000
0.3300      3.79E-21     1.000
0.3325      3.79E-21     1.000
0.3350      4.33E-21     1.000
0.3375      4.87E-21     1.000
0.3400      5.41E-21     1.000
0.3425      5.95E-21     1.000
0.3450      6.49E-21     1.000
0.3475      7.03E-21     1.000
0.3500      8.12E-21     0.995
0.3525      7.57E-21     0.960
0.3550      9.20E-21     0.925
0.3575      9.74E-21     0.890
0.3600      1.08E-20     0.855
0.3625      1.19E-20     0.820
0.3650      1.41E-20     0.785
0.3675      1.51E-20     0.750
0.3700      1.79E-20     0.715
0.3725      2.00E-20     0.680
0.3750      2.11E-20     0.645
0.3775      2.33E-20     0.610
0.3800      2.60E-20     0.575
0.3825      2.81E-20     0.540
0.3850      3.14E-20     0.505
0.3875      3.46E-20     0.470
0.3900      3.90E-20     0.435
0.3925      4.11E-20     0.399
0.3950      4.33E-20     0.364
0.3975      4.38E-20     0.329
0.4000      4.65E-20     0.294
0.4025      4.81E-20     0.259
0.4050      5.19E-20     0.224
0.4075      5.84E-20     0.189
0.4100      6.06E-20     0.154
0.4125      6.49E-20     0.119
0.4150      6.92E-20     0.084
0.4175      6.87E-20     0.049
0.4200      6.82E-20     0.014
0.4225      6.71E-20     0.000
0.4250      6.49E-20     0.000
0.4275      5.95E-20     0.000
0.4300      5.73E-20     0.000
0.4325      6.28E-20     0.000
0.4350      6.01E-20     0.000
0.4375      5.84E-20     0.000
0.4400      5.95E-20     0.000
0.4425      6.49E-20     0.000
0.4450      5.95E-20     0.000
0.4475      4.98E-20     0.000
0.4500      3.79E-20     0.000
0.4525      2.81E-20     0.000
0.4550      1.73E-20     0.000
0.4575      1.08E-20     0.000
0.4600      5.41E-21     0.000
0.4625      3.79E-21     0.000
0.4650      2.16E-21     0.000
0.4675      1.08E-21     0.000
0.4700      1.08E-21     0.000
0.4725      0.00E+00     0.000
